SubjID,List,Order,Run,TrialNumber,TrialOnset,Condition,ItemNum,Item,Motion,CorrectAnswer,Response,Accuracy,RT
FED_20160519b_3T1 ,1,1,2,1,0,FIX,0,+,-,0,0,0,0
FED_20160519b_3T1 ,1,1,2,2,24,Pic_Sem,28,28_implaus_child_laces_shoes_of_father.jpg,left,2,0,0,0
FED_20160519b_3T1 ,1,1,2,3,26,Pic_Sem,27,27_plaus_lady_applauds_the_athlete.jpg,left,1,1,1,1.73525722901104
FED_20160519b_3T1 ,1,1,2,4,28,Pic_Sem,2,02_implaus_child_scolding_babysitter.jpg,left,2,1,0,0.968213394007762
FED_20160519b_3T1 ,1,1,2,5,30,Pic_Sem,8,08_implaus_business_man_painting_artist.jpg,right,2,1,0,1.08693154800858
FED_20160519b_3T1 ,1,1,2,6,32,Pic_Sem,13,13_plaus_pirate_kidnaping_princess.jpg,left,1,1,1,1.27292131200375
FED_20160519b_3T1 ,1,1,2,7,34,Pic_Sem,4,04_implaus_grandmother_rescuse_fireman.jpg,left,2,2,1,0.854335621013888
FED_20160519b_3T1 ,1,1,2,8,36,Pic_Sem,36,36_implaus_child_licking_dog.jpg,left,2,2,1,1.11938650900265
FED_20160519b_3T1 ,1,1,2,9,38,Pic_Sem,21,21_plaus_ballerina_dances_for_grandpa.jpg,left,1,1,1,1.15236733100028
FED_20160519b_3T1 ,1,1,2,10,40,Pic_Sem,25,25_plaus_santa_gives_present_to_girl.jpg,right,1,1,1,1.21732523399987
FED_20160519b_3T1 ,1,1,2,11,42,Pic_Sem,35,35_plaus_bouncer_rejects_girl.jpg,right,1,1,1,1.4192985460104
FED_20160519b_3T1 ,1,1,2,12,46,Pic_Perc,7,07_plaus_mother_feeding_baby.jpg,left,1,1,1,1.7423870650091
FED_20160519b_3T1 ,1,1,2,13,48,Pic_Perc,22,22_implaus_sports_star_interviews_journalist.jpg,left,1,0,0,0
FED_20160519b_3T1 ,1,1,2,14,50,Pic_Perc,39,39_plaus_lifeguard_saves_grandma.jpg,left,1,2,0,1.11404797900468
FED_20160519b_3T1 ,1,1,2,15,52,Pic_Perc,9,09_plaus_groom_carries_bride.jpg,left,1,1,1,1.08011632000853
FED_20160519b_3T1 ,1,1,2,16,54,Pic_Perc,5,05_plaus_dentist_treating_patient.jpg,left,1,1,1,1.54016773500189
FED_20160519b_3T1 ,1,1,2,17,56,Pic_Perc,40,40_implaus_lady_opens_door_for_chauffeur.jpg,right,2,0,0,0
FED_20160519b_3T1 ,1,1,2,18,58,Pic_Perc,30,30_implaus_mouse_chases_cat.jpg,left,1,1,1,1.36207802900753
FED_20160519b_3T1 ,1,1,2,19,60,Pic_Perc,10,10_implaus_king_entertain_jester.jpg,left,1,2,0,1.42864408501191
FED_20160519b_3T1 ,1,1,2,20,62,Pic_Perc,3,03_plaus_doctor_uses_stethoscope_on_patient.jpg,right,2,2,1,1.47371886300971
FED_20160519b_3T1 ,1,1,2,21,64,Pic_Perc,38,38_implaus_princess_measuring_tailor.jpg,right,2,1,0,1.766758089012
FED_20160519b_3T1 ,1,1,2,22,68,Sent_Sem,3,The patient is using a stethoscope on the doctor.,left,2,2,1,1.78323829200235
FED_20160519b_3T1 ,1,1,2,23,70,Sent_Sem,33,The worker is yelling at the boss.,left,2,0,0,0
FED_20160519b_3T1 ,1,1,2,24,72,Sent_Sem,12,The photographer is taking a picture of the model.,right,1,2,0,0.0407267900009174
FED_20160519b_3T1 ,1,1,2,25,74,Sent_Sem,7,The baby is feeding the mother.,left,2,2,1,1.17236750300799
FED_20160519b_3T1 ,1,1,2,26,76,Sent_Sem,18,The waiter is serving the customer.,right,1,1,1,1.32266664900817
FED_20160519b_3T1 ,1,1,2,27,78,Sent_Sem,29,The grandma is stealing the purse from the thief.,right,2,0,0,0
FED_20160519b_3T1 ,1,1,2,28,80,Sent_Sem,38,The tailor is measuring the princess.,right,1,1,1,0.0559190290077822
FED_20160519b_3T1 ,1,1,2,29,82,Sent_Sem,4,The fireman is rescuing the grandmother.,right,1,1,1,1.5210112400091
FED_20160519b_3T1 ,1,1,2,30,84,Sent_Sem,40,The chauffeur is opening the door for the lady.,left,1,2,0,1.4534926530032
FED_20160519b_3T1 ,1,1,2,31,86,Sent_Sem,11,The Safari guide is pouncing on the lion.,left,2,2,1,1.66090682100912
FED_20160519b_3T1 ,1,1,2,32,90,Sent_Perc,17,The woman is biting the vampire.,right,2,1,0,1.69717398400826
FED_20160519b_3T1 ,1,1,2,33,92,Sent_Perc,30,The cat is chasing the mouse.,right,2,1,0,1.1119657530071
FED_20160519b_3T1 ,1,1,2,34,94,Sent_Perc,16,The professor is lecturing to the student.,right,2,1,0,1.02830887300661
FED_20160519b_3T1 ,1,1,2,35,96,Sent_Perc,6,The ghost is frightening the girl.,left,1,0,0,0
FED_20160519b_3T1 ,1,1,2,36,98,Sent_Perc,37,The woman is proposing to the man.,right,2,2,1,1.27999249100685
FED_20160519b_3T1 ,1,1,2,37,100,Sent_Perc,28,The father is tying the son's shoes.,right,2,2,1,1.5499422080029
FED_20160519b_3T1 ,1,1,2,38,102,Sent_Perc,22,The journalist is interviewng the sportsstar.,left,1,1,1,1.53063201300392
FED_20160519b_3T1 ,1,1,2,39,104,Sent_Perc,27,The athlete is applauding the lady.,right,2,2,1,1.58815995400073
FED_20160519b_3T1 ,1,1,2,40,106,Sent_Perc,10,The jester is entertaining the king.,right,2,1,0,1.69486492000578
FED_20160519b_3T1 ,1,1,2,41,108,Sent_Perc,1,The criminal is arresting the cop.,left,1,2,0,1.63367546800873
FED_20160519b_3T1 ,1,1,2,42,110,FIX,0,+,-,0,0,0,0
FED_20160519b_3T1 ,1,1,2,43,134,Sent_Perc,17,The woman is biting the vampire.,right,2,0,0,0
FED_20160519b_3T1 ,1,1,2,44,136,Sent_Perc,30,The cat is chasing the mouse.,right,2,2,1,1.11984356300673
FED_20160519b_3T1 ,1,1,2,45,138,Sent_Perc,16,The professor is lecturing to the student.,right,2,1,0,1.45240858000761
FED_20160519b_3T1 ,1,1,2,46,140,Sent_Perc,6,The ghost is frightening the girl.,left,1,1,1,1.31730240100296
FED_20160519b_3T1 ,1,1,2,47,142,Sent_Perc,37,The woman is proposing to the man.,right,2,1,0,1.05294096900616
FED_20160519b_3T1 ,1,1,2,48,144,Sent_Perc,28,The father is tying the son's shoes.,right,2,2,1,0.884744877999765
FED_20160519b_3T1 ,1,1,2,49,146,Sent_Perc,22,The journalist is interviewng the sportsstar.,left,1,2,0,1.24937390201376
FED_20160519b_3T1 ,1,1,2,50,148,Sent_Perc,27,The athlete is applauding the lady.,right,2,1,0,1.69913321000058
FED_20160519b_3T1 ,1,1,2,51,150,Sent_Perc,10,The jester is entertaining the king.,right,2,2,1,1.43106675200397
FED_20160519b_3T1 ,1,1,2,52,152,Sent_Perc,1,The criminal is arresting the cop.,left,1,2,0,1.06302264401165
FED_20160519b_3T1 ,1,1,2,53,156,Sent_Sem,3,The patient is using a stethoscope on the doctor.,left,2,2,1,1.34691679400566
FED_20160519b_3T1 ,1,1,2,54,158,Sent_Sem,33,The worker is yelling at the boss.,left,2,2,1,1.16126032901229
FED_20160519b_3T1 ,1,1,2,55,160,Sent_Sem,12,The photographer is taking a picture of the model.,right,1,2,0,1.64571468801296
FED_20160519b_3T1 ,1,1,2,56,162,Sent_Sem,7,The baby is feeding the mother.,left,2,1,0,1.29389771500428
FED_20160519b_3T1 ,1,1,2,57,164,Sent_Sem,18,The waiter is serving the customer.,right,1,2,0,1.36196685000323
FED_20160519b_3T1 ,1,1,2,58,166,Sent_Sem,29,The grandma is stealing the purse from the thief.,right,2,2,1,1.4582678930019
FED_20160519b_3T1 ,1,1,2,59,168,Sent_Sem,38,The tailor is measuring the princess.,right,1,2,0,1.47646643800545
FED_20160519b_3T1 ,1,1,2,60,170,Sent_Sem,4,The fireman is rescuing the grandmother.,right,1,2,0,1.25689768900338
FED_20160519b_3T1 ,1,1,2,61,172,Sent_Sem,40,The chauffeur is opening the door for the lady.,left,1,1,1,1.42446055701294
FED_20160519b_3T1 ,1,1,2,62,174,Sent_Sem,11,The Safari guide is pouncing on the lion.,left,2,1,0,1.12167422400671
FED_20160519b_3T1 ,1,1,2,63,178,Pic_Perc,7,07_plaus_mother_feeding_baby.jpg,left,1,2,0,1.3050218240096
FED_20160519b_3T1 ,1,1,2,64,180,Pic_Perc,22,22_implaus_sports_star_interviews_journalist.jpg,left,1,2,0,1.03849128300499
FED_20160519b_3T1 ,1,1,2,65,182,Pic_Perc,39,39_plaus_lifeguard_saves_grandma.jpg,left,1,2,0,1.03842700501264
FED_20160519b_3T1 ,1,1,2,66,184,Pic_Perc,9,09_plaus_groom_carries_bride.jpg,left,1,2,0,0.921179980010493
FED_20160519b_3T1 ,1,1,2,67,186,Pic_Perc,5,05_plaus_dentist_treating_patient.jpg,left,1,2,0,0.953040403008345
FED_20160519b_3T1 ,1,1,2,68,188,Pic_Perc,40,40_implaus_lady_opens_door_for_chauffeur.jpg,right,2,1,0,1.38837035100732
FED_20160519b_3T1 ,1,1,2,69,190,Pic_Perc,30,30_implaus_mouse_chases_cat.jpg,left,1,1,1,1.36780615099997
FED_20160519b_3T1 ,1,1,2,70,192,Pic_Perc,10,10_implaus_king_entertain_jester.jpg,left,1,2,0,1.2184011870122
FED_20160519b_3T1 ,1,1,2,71,194,Pic_Perc,3,03_plaus_doctor_uses_stethoscope_on_patient.jpg,right,2,1,0,1.53431925200857
FED_20160519b_3T1 ,1,1,2,72,196,Pic_Perc,38,38_implaus_princess_measuring_tailor.jpg,right,2,2,1,1.35043766000308
FED_20160519b_3T1 ,1,1,2,73,200,Pic_Sem,28,28_implaus_child_laces_shoes_of_father.jpg,left,2,2,1,1.2312825290137
FED_20160519b_3T1 ,1,1,2,74,202,Pic_Sem,27,27_plaus_lady_applauds_the_athlete.jpg,left,1,1,1,0.997462812010781
FED_20160519b_3T1 ,1,1,2,75,204,Pic_Sem,2,02_implaus_child_scolding_babysitter.jpg,left,2,2,1,1.31322073200135
FED_20160519b_3T1 ,1,1,2,76,206,Pic_Sem,8,08_implaus_business_man_painting_artist.jpg,right,2,1,0,1.6912931320112
FED_20160519b_3T1 ,1,1,2,77,208,Pic_Sem,13,13_plaus_pirate_kidnaping_princess.jpg,left,1,2,0,1.59652514901245
FED_20160519b_3T1 ,1,1,2,78,210,Pic_Sem,4,04_implaus_grandmother_rescuse_fireman.jpg,left,2,1,0,1.14591382200888
FED_20160519b_3T1 ,1,1,2,79,212,Pic_Sem,36,36_implaus_child_licking_dog.jpg,left,2,1,0,1.09314383300079
FED_20160519b_3T1 ,1,1,2,80,214,Pic_Sem,21,21_plaus_ballerina_dances_for_grandpa.jpg,left,1,1,1,1.34531535100541
FED_20160519b_3T1 ,1,1,2,81,216,Pic_Sem,25,25_plaus_santa_gives_present_to_girl.jpg,right,1,2,0,0.977731134000351
FED_20160519b_3T1 ,1,1,2,82,218,Pic_Sem,35,35_plaus_bouncer_rejects_girl.jpg,right,1,1,1,1.09199742101191
FED_20160519b_3T1 ,1,1,2,83,220,FIX,0,+,-,0,0,0,0
